Folder: FP/V44_Röntgenreflektometrie/data

Note: V44_Röntgenreflektometrie/data/Detektorscan.txt
# 2THETA  Cnt1_D1
  -0.0946     279474
  -0.0896     324909
  -0.0846     393969
  -0.0796     465150
  -0.0746     548346
  -0.0696     673140
  -0.0646     826205
  -0.0596    1067820
  -0.0546    1405140
  -0.0496    1985600
  -0.0446    3521650
  -0.0396    4953300
  -0.0346    9384100
  -0.0296   15455600
  -0.0246   22091300
  -0.0196   31172400
  -0.0146   39939900
  -0.0096   47819200
  -0.0046   54246000
   0.0004   56555400
   0.0054   58405100
   0.0104   54496800
   0.0154   50170500
   0.0204   41016300
   0.0254   34004300
   0.0304   26062300
   0.0354   19165300
   0.0404   13605900
   0.0454    9091500
   0.0504    5569850
   0.0554    3699300
   0.0604    2027300
   0.0654    1233910
   0.0704     837614
   0.0754     616801
   0.0804     466665
   0.0854     384075
   0.0904     321173
   0.0954     281089
   0.1004     244742
   0.1054     219601
   0.1104     194461

Note: V44_Röntgenreflektometrie/data/korrigiert.txt
0.000e+00 6.354e+02
5.000e-03 5.801e+01
1.000e-02 3.433e+01
1.500e-02 2.567e+01
2.000e-02 2.077e+01
2.500e-02 1.661e+01
3.000e-02 1.285e+01
3.500e-02 9.329e+00
4.000e-02 6.297e+00
4.500e-02 4.358e+00
5.000e-02 2.964e+00
5.500e-02 2.161e+00
6.000e-02 1.641e+00
6.500e-02 1.365e+00
7.000e-02 1.193e+00
7.500e-02 1.151e+00
8.000e-02 1.054e+00
8.500e-02 1.063e+00
9.000e-02 1.041e+00
9.500e-02 1.050e+00
1.000e-01 1.036e+00
1.050e-01 1.069e+00
1.100e-01 1.081e+00
1.150e-01 1.079e+00
1.200e-01 1.064e+00
1.250e-01 1.060e+00
1.300e-01 1.072e+00
1.350e-01 1.073e+00
1.400e-01 1.061e+00
1.450e-01 1.101e+00
1.500e-01 1.091e+00
1.550e-01 1.081e+00
1.600e-01 1.081e+00
1.650e-01 1.074e+00
1.700e-01 1.082e+00
1.750e-01 1.079e+00
1.800e-01 1.068e+00
1.850e-01 1.084e+00
1.900e-01 1.091e+00
1.950e-01 1.073e+00
2.000e-01 1.080e+00
2.050e-01 1.084e+00
2.100e-01 1.075e+00
2.150e-01 1.077e+00
2.200e-01 1.078e+00
2.250e-01 1.070e+00
2.300e-01 1.061e+00
2.350e-01 1.067e+00
2.400e-01 1.075e+00
2.450e-01 1.070e+00
2.500e-01 1.075e+00
2.550e-01 1.056e+00
2.600e-01 1.069e+00
2.650e-01 1.058e+00
2.700e-01 1.055e+00
2.750e-01 1.053e+00
2.800e-01 1.044e+00
2.850e-01 1.051e+00
2.900e-01 1.043e+00
2.950e-01 1.040e+00
3.000e-01 1.022e+00
3.050e-01 1.025e+00
3.100e-01 1.004e+00
3.150e-01 1.000e+00
3.200e-01 9.597e-01
3.250e-01 9.404e-01
3.300e-01 9.224e-01
3.350e-01 9.183e-01
3.400e-01 9.123e-01
3.450e-01 9.065e-01
3.500e-01 9.115e-01
3.550e-01 9.037e-01
3.600e-01 9.005e-01
3.650e-01 8.849e-01
3.700e-01 8.813e-01
3.750e-01 8.730e-01
3.800e-01 8.784e-01
3.850e-01 8.779e-01
3.900e-01 8.932e-01
3.950e-01 8.839e-01
4.000e-01 8.887e-01
4.050e-01 8.817e-01
4.100e-01 8.904e-01
4.150e-01 8.771e-01
4.200e-01 8.575e-01
4.250e-01 8.385e-01
4.300e-01 8.099e-01
4.350e-01 7.854e-01
4.400e-01 7.630e-01
4.450e-01 7.242e-01
4.500e-01 6.698e-01
4.550e-01 6.096e-01
4.600e-01 5.322e-01
4.650e-01 4.600e-01
4.700e-01 3.796e-01
4.750e-01 3.068e-01
4.800e-01 2.392e-01
4.850e-01 1.856e-01
4.900e-01 1.442e-01
4.950e-01 1.156e-01
5.000e-01 9.407e-02
5.050e-01 8.267e-02
5.100e-01 8.123e-02
5.150e-01 8.016e-02
5.200e-01 8.242e-02
5.250e-01 8.453e-02
5.300e-01 8.844e-02
5.350e-01 8.644e-02
5.400e-01 8.224e-02
5.450e-01 7.767e-02
5.500e-01 6.966e-02
5.550e-01 6.269e-02
5.600e-01 4.697e-02
5.650e-01 4.200e-02
5.700e-01 3.338e-02
5.750e-01 2.700e-02
5.800e-01 2.220e-02
5.850e-01 1.961e-02
5.900e-01 1.872e-02
5.950e-01 1.948e-02
6.000e-01 2.138e-02
6.050e-01 2.406e-02
6.100e-01 2.674e-02
6.150e-01 2.885e-02
6.200e-01 3.040e-02
6.250e-01 3.096e-02
6.300e-01 3.038e-02
6.350e-01 2.877e-02
6.400e-01 2.644e-02
6.450e-01 2.363e-02
6.500e-01 1.989e-02
6.550e-01 1.683e-02
6.600e-01 1.369e-02
6.650e-01 1.107e-02
6.700e-01 8.920e-03
6.750e-01 7.721e-03
6.800e-01 7.245e-03
6.850e-01 7.529e-03
6.900e-01 8.501e-03
6.950e-01 9.572e-03
7.000e-01 1.084e-02
7.050e-01 1.220e-02
7.100e-01 1.337e-02
7.150e-01 1.407e-02
7.200e-01 1.436e-02
7.250e-01 1.420e-02
7.300e-01 1.358e-02
7.350e-01 1.255e-02
7.400e-01 1.120e-02
7.450e-01 9.643e-03


Note: V44_Röntgenreflektometrie/data/refl1untergrund.txt
# THETA  Cnt1_D1
   0.0000    2891670
   0.0050    2431160
   0.0100    2080000
   0.0150    1804310
   0.0200    1681250
   0.0250    1663180
   0.0300    1730490
   0.0350    1902170
   0.0400    2098880
   0.0450    2354380
   0.0500    2713660
   0.0550    2942960
   0.0600    3161140
   0.0650    3437990
   0.0700    3688090
   0.0750    4029960
   0.0800    4220680
   0.0850    4219070
   0.0900    4206040
   0.0950    4154650
   0.1000    4143850
   0.1050    3868210
   0.1100    3556730
   0.1150    3397710
   0.1200    3244340
   0.1250    2985260
   0.1300    2620470
   0.1350    2331910
   0.1400    1974090
   0.1450    1823960
   0.1500    1622190
   0.1550    1470470
   0.1600    1309610
   0.1650    1201340
   0.1700    1092210
   0.1750    1016990
   0.1800     931943
   0.1850     863802
   0.1900     788810
   0.1950     749473
   0.2000     708177
   0.2050     665865
   0.2100     606887
   0.2150     533556
   0.2200     455293
   0.2250     377260
   0.2300     296617
   0.2350     221856
   0.2400     183786
   0.2450     145375
   0.2500     117446
   0.2550     103543
   0.2600      93467
   0.2650      84209
   0.2700      74305
   0.2750      64660
   0.2800      55902
   0.2850      49497
   0.2900      44638
   0.2950      42139
   0.3000      39531
   0.3050      37962
   0.3100      35048
   0.3150      32680
   0.3200      29080
   0.3250      25956
   0.3300      23858
   0.3350      22931
   0.3400      21990
   0.3450      21452
   0.3500      20602
   0.3550      19583
   0.3600      18169
   0.3650      16599
   0.3700      14761
   0.3750      14160
   0.3800      13345
   0.3850      13020
   0.3900      12933
   0.3950      12692
   0.4000      12303
   0.4050      11554
   0.4100      10797
   0.4150      10097
   0.4200       9154
   0.4250       8704
   0.4300       8411
   0.4350       8274
   0.4400       8241
   0.4450       8054
   0.4500       7825
   0.4550       7564
   0.4600       6940
   0.4650       6417
   0.4700       6059
   0.4750       5829
   0.4800       5455
   0.4850       5420
   0.4900       5466
   0.4950       5364
   0.5000       5266
   0.5050       5038
   0.5100       4679
   0.5150       4648
   0.5200       4078
   0.5250       4071
   0.5300       3691
   0.5350       3801
   0.5400       3663
   0.5450       3728
   0.5500       3772
   0.5550       3661
   0.5600       3462
   0.5650       3245
   0.5700       3064
   0.5750       2828
   0.5800       2723
   0.5850       2642
   0.5900       2547
   0.5950       2660
   0.6000       2676
   0.6050       2715
   0.6100       2541
   0.6150       2313
   0.6200       2251
   0.6250       2154
   0.6300       2106
   0.6350       2020
   0.6400       2010
   0.6450       1915
   0.6500       1872
   0.6550       1858
   0.6600       1870
   0.6650       1726
   0.6700       1662
   0.6750   

File: refl1.uxd
; (content of file C:\Users\Michael\Desktop\PP_080622\refl1.raw)
_FILEVERSION = 2
_SAMPLE =
_+SAMPLE =
_SITE = Dortmund
_USER = "Metin Tolan"
_GONIOMETER_CODE = 21
_STAGE_CODE = 8
; Goniometer : D8 theta/theta, stage : XYZ Drive(s)
_SAMPLE_CHANGER_CODE = 0
_ATTACHMENTS_CODE = 0
_GONIOMETER_RADIUS = 300
_FIXED_DIVSLIT = 0.15
_FIXED_SAMPLESLIT = 1
_SOLLER_SLITS = 2
_FIXED_DETSLIT = 1
_MONOCHROMATOR = 0
; Incident beam monochromator : None
_THIN_FILM = N
_BETA_FILTER = N
_FIXED_ANTISLIT = 0.15
_ANALYZER_CODE = 0
; Received beam analyzer : None
_DATEMEASURED = "08-Jun-2022 12:54:46"
_WL_UNIT = A
_WL1 = 1.5406
_WL2 = 1.54439
_WL3 = 1.39222
_WLRATIO = 0.5
_ANODE = Cu

; Data for range 1
_DRIVE = COUPLED
_STEPTIME = 9.942
_STEPSIZE = 0.005
_STEPMODE = C
_START = 0
_THETA = 0
_2THETA = 0
_KHI = 0
_PHI = 0
_X = 19
_Y = 15
_Z = -9.712
_DETECTOR = 1
; Detector type : Scintillation counter
_HV = 743.4
_GAIN = 80
_LLD = 0.98
_ULD = 2.01
_DETECTORSLIT = out
_AUX1 = 0
_AUX2 = 0
_AUX3 = 0
_TIMESTARTED = 1
_TEMP_RATE = -1
_TEMP_DELAY = -1
_KV = 40
_MA = 35
_RANGE_WL = 1.5406
_3DPLANE = 0
_V4_COUNTERS_MASK = 1
_V4_DRIVES_MASK = 0
_V4_ENCODERS_MASK = 0
_2THETACOUNTS = 1
; 2THETA  Cnt1_D1
   0.0000  232408000
   0.0050  264332992
   0.0100  312079008
   0.0150  349520992
   0.0200  376775008
   0.0250  376608000
   0.0300  349835008
   0.0350  296737984
   0.0400  229524000
   0.0450  179447008
   0.0500  136528992
   0.0550  110279000
   0.0600   92075000
   0.0650   83537296
   0.0700   79106496
   0.0750   82001200
   0.0800   80339600
   0.0850   85773600
   0.0900   88793696
   0.0950   94217200
   0.1000   97728400
   0.1050  105263000
   0.1100  110948000
   0.1150  115483000
   0.1200  118513000
   0.1250  122662000
   0.1300  128441000
   0.1350  133112000
   0.1400  136059008
   0.1450  145996992
   0.1500  149456000
   0.1550  152831008
   0.1600  157482000
   0.1650  161180992
   0.1700  167252000
   0.1750  171558000
   0.1800  174578000
   0.1850  182018000
   0.1900  187922000
   0.1950  189708992
   0.2000  195676000
   0.2050  201319008
   0.2100  204412000
   0.2150  209606000
   0.2200  214570000
   0.2250  217851008
   0.2300  220600000
   0.2350  226628992
   0.2400  233160000
   0.2450  236902000
   0.2500  242868000
   0.2550  243360000
   0.2600  251114000
   0.2650  253235008
   0.2700  257236992
   0.2750  261552992
   0.2800  264051008
   0.2850  270508992
   0.2900  273225984
   0.2950  277124000
   0.3000  276894016
   0.3050  282233984
   0.3100  281115008
   0.3150  284470016
   0.3200  277343008
   0.3250  276016000
   0.3300  274887008
   0.3350  277803008
   0.3400  280123008
   0.3450  282411008
   0.3500  288107008
   0.3550  289704992
   0.3600  292756992
   0.3650  291680000
   0.3700  294449984
   0.3750  295640992
   0.3800  301430016
   0.3850  305203008
   0.3900  314566016
   0.3950  315287008
   0.4000  320992992
   0.4050  318464000
   0.4100  321620000
   0.4150  316812992
   0.4200  309716992
   0.4250  302862016
   0.4300  292548000
   0.4350  283696992
   0.4400  275587008
   0.4450  261595008
   0.4500  241918000
   0.4550  220171008
   0.4600  192248992
   0.4650  166164992
   0.4700  137104000
   0.4750  110801000
   0.4800   86400600
   0.4850   67036800
   0.4900   52103700
   0.4950   41758200
   0.5000   33983400
   0.5050   29866100
   0.5100   29343600
   0.5150   28957000
   0.5200   29772100
   0.5250   30534900
   0.5300   31945700
   0.5350   31224600
   0.5400   29709400
   0.5450   28058300
   0.5500   25163600
   0.5550   22645200
   0.5600   16970200
   0.5650   15174100
   0.5700   12057900
   0.5750    9755540
   0.5800    8021850
   0.5850    7084580
   0.5900    6763110
   0.5950    7039350
   0.6000    7724810
   0.6050    8691250
   0.6100    9659420
   0.6150   10422300
   0.6200   10983500
   0.6250   11184100
   0.6300   10973800
   0.6350   10394000
   0.6400    9551790
   0.6450    8535160
   0.6500    7187570
   0.6550    6080580
   0.6600    4945310
   0.6650    3999670
   0.6700    3223640
   0.6750    2790500
   0.6800    2618450
   0.6850    2720830
   0.6900    3071990
   0.6950    3458690
   0.7000    3918490
   0.7050    4406060
   0.7100    4829100
   0.7150    5081520
   0.7200    5187230
   0.7250    5128470
   0.7300    4904520
   0.7350    4535290
   0.7400    4044600
   0.7450    3484130
   0.7500    2881870
   0.7550    2373410
   0.7600    1930670
   0.7650    1586180
   0.7700    1477660
   0.7750    1381440
   0.7800    1397800
   0.7850    1558530
   0.7900    1769550
   0.7950    2025310
   0.8000    2303760
   0.8050    2551510
   0.8100    2624510
   0.8150    2735880
   0.8200    2743750
   0.8250    2629050
   0.8300    2544650
   0.8350    2327970
   0.8400    2056480
   0.8450    1705480
   0.8500    1535450
   0.8550    1282670
   0.8600    1051170
   0.8650     876515
   0.8700     776808
   0.8750     739130
   0.8800     781106
   0.8850     871842
   0.8900    1007560
   0.8950    1151660
   0.9000    1302460
   0.9050    1447580
   0.9100    1547970
   0.9150    1602310
   0.9200    1620360
   0.9250    1582890
   0.9300    1499720
   0.9350    1380540
   0.9400    1229150
   0.9450    1063360
   0.9500     893017
   0.9550     734726
   0.9600     613575
   0.9650     515623
   0.9700     453287
   0.9750     434242
   0.9800     451743
   0.9850     503016
   0.9900     573460
   0.9950     654256
   1.0000     750691
   1.0050     834366
   1.0100     905193
   1.0150     947889
   1.0200     958923
   1.0250     948829
   1.0300     914394
   1.0350     847884
   1.0400     772423
   1.0450     667122
   1.0500     577518
   1.0550     487981
   1.0600     404614
   1.0650     343295
   1.0700     295504
   1.0750     272755
   1.0800     273696
   1.0850     296492
   1.0900     334084
   1.0950     382988
   1.1000     440709
   1.1050     491138
   1.1100     540665
   1.1150     578238
   1.1200     589521
   1.1250     599528
   1.1300     581327
   1.1350     557715
   1.1400     512323
   1.1450     458929
   1.1500     406619
   1.1550     346758
   1.1600     295897
   1.1650     245612
   1.1700     207387
   1.1750     200292
   1.1800     198373
   1.1850     204022
   1.1900     222923
   1.1950     244854
   1.2000     260724
   1.2050     296128
   1.2100     329200
   1.2150     359059
   1.2200     378756
   1.2250     389349
   1.2300     389598
   1.2350     383055
   1.2400     362465
   1.2450     330668
   1.2500     293489
   1.2550     258958
   1.2600     224063
   1.2650     191121
   1.2700     175657
   1.2750     154059
   1.2800     139838
   1.2850     135337
   1.2900     140528
   1.2950     153625
   1.3000     173028
   1.3050     195757
   1.3100     222075
   1.3150     244634
   1.3200     245344
   1.3250     252453
   1.3300     262048
   1.3350     256905
   1.3400     252559
   1.3450     237284
   1.3500     219409
   1.3550     204259
   1.3600     189352
   1.3650     162874
   1.3700     139931
   1.3750     119238
   1.3800     104945
   1.3850      96257
   1.3900      94771
   1.3950      99044
   1.4000     107975
   1.4050     121939
   1.4100     137531
   1.4150     154940
   1.4200     169873
   1.4250     182889
   1.4300     191318
   1.4350     195775
   1.4400     194848
   1.4450     188477
   1.4500     178219
   1.4550     164967
   1.4600     148170
   1.4650     130050
   1.4700     111986
   1.4750      96909

File: rockingscan0_genauer.uxd
; (content of file C:\Users\Michael\Desktop\PP_080622\rockingscan0_genauer.raw)
_FILEVERSION = 2
_SAMPLE =
_+SAMPLE =
_SITE = Dortmund
_USER = "Metin Tolan"
_GONIOMETER_CODE = 21
_STAGE_CODE = 8
; Goniometer : D8 theta/theta, stage : XYZ Drive(s)
_SAMPLE_CHANGER_CODE = 0
_ATTACHMENTS_CODE = 0
_GONIOMETER_RADIUS = 300
_FIXED_DIVSLIT = 0.15
_FIXED_SAMPLESLIT = 1
_SOLLER_SLITS = 2
_FIXED_DETSLIT = 1
_MONOCHROMATOR = 0
; Incident beam monochromator : None
_THIN_FILM = N
_BETA_FILTER = N
_FIXED_ANTISLIT = 0.15
_ANALYZER_CODE = 0
; Received beam analyzer : None
_DATEMEASURED = "08-Jun-2022 12:34:17"
_WL_UNIT = A
_WL1 = 1.5406
_WL2 = 1.54439
_WL3 = 1.39222
_WLRATIO = 0.5
_ANODE = Cu

; Data for range 1
_DRIVE = THETA
_STEPTIME = 1
_STEPSIZE = 0.01
_STEPMODE = C
_START = -0.3502
_THETA = -0.3502
_2THETA = 0.1104
_KHI = 0
_PHI = 0
_X = 19
_Y = 15
_Z = -9.465
_DETECTOR = 1
; Detector type : Scintillation counter
_HV = 743.4
_GAIN = 80
_LLD = 0.98
_ULD = 2.01
_DETECTORSLIT = out
_AUX1 = 0
_AUX2 = 0
_AUX3 = 0
_TIMESTARTED = 2
_TEMP_RATE = -1
_TEMP_DELAY = -1
_KV = 40
_MA = 35
_RANGE_WL = 1.5406
_3DPLANE = 0
_V4_COUNTERS_MASK = 1
_V4_DRIVES_MASK = 0
_V4_ENCODERS_MASK = 0
_2THETACOUNTS = 1
; THETA  Cnt1_D1
  -0.3502       3949
  -0.3402       4465
  -0.3302       5367
  -0.3202       6507
  -0.3102       7602
  -0.3002       8836
  -0.2902      10522
  -0.2802      12010
  -0.2702      14184
  -0.2602      15814
  -0.2502      17619
  -0.2402      19816
  -0.2302      21895
  -0.2202      23659
  -0.2102      30098
  -0.2002      33149
  -0.1902      35702
  -0.1802      38043
  -0.1702      41775
  -0.1602      45603
  -0.1502      48194
  -0.1402      51513
  -0.1302      56215
  -0.1202      58767
  -0.1102      62442
  -0.1002      64869
  -0.0902      71038
  -0.0802      74665
  -0.0702      79165
  -0.0602      83972
  -0.0502      86524
  -0.0402      92156
  -0.0302      96714
  -0.0202      99477
  -0.0102     103929
  -0.0002     108822
   0.0098     110415
   0.0198     111345
   0.0298     100926
   0.0398      98114
   0.0498      93624
   0.0598      88261
   0.0698      85373
   0.0798      81410
   0.0898      77563
   0.0998      71336
   0.1098      68784
   0.1198      64946
   0.1298      61904
   0.1398      56810
   0.1498      53106
   0.1598      49585
   0.1698      47119
   0.1798      42715
   0.1898      38954
   0.1998      36565
   0.2098      32411
   0.2198      27949
   0.2298      25119
   0.2398      21780
   0.2498      20293
   0.2598      14292
   0.2698      12427
   0.2798      10549
   0.2898       8652
   0.2998       6995
   0.3098       5530
   0.3198       4254
   0.3298       3123
   0.3398       2338
   0.3498       1571
   0.3598       1076
   0.3698        646
   0.3798        442
   0.3898        308
   0.3998        268
   0.4098        267
   0.4198        218
   0.4298        247
   0.4398        224
   0.4498        219
   0.4598        208
   0.4698        227
   0.4798        240
   0.4898        216
   0.4998        204

File: rockingscan0_genauer_absorber=100.uxd
; (content of file C:\Users\Michael\Desktop\PP_080622\rockingscan0_genauer_absorber=100.raw)
_FILEVERSION = 2
_SAMPLE =
_+SAMPLE =
_SITE = Dortmund
_USER = "Metin Tolan"
_GONIOMETER_CODE = 21
_STAGE_CODE = 8
; Goniometer : D8 theta/theta, stage : XYZ Drive(s)
_SAMPLE_CHANGER_CODE = 0
_ATTACHMENTS_CODE = 0
_GONIOMETER_RADIUS = 300
_FIXED_DIVSLIT = 0.15
_FIXED_SAMPLESLIT = 1
_SOLLER_SLITS = 2
_FIXED_DETSLIT = 1
_MONOCHROMATOR = 0
; Incident beam monochromator : None
_THIN_FILM = N
_BETA_FILTER = N
_FIXED_ANTISLIT = 0.15
_ANALYZER_CODE = 0
; Received beam analyzer : None
_DATEMEASURED = "08-Jun-2022 12:38:50"
_WL_UNIT = A
_WL1 = 1.5406
_WL2 = 1.54439
_WL3 = 1.39222
_WLRATIO = 0.5
_ANODE = Cu

; Data for range 1
_DRIVE = THETA
_STEPTIME = 1
_STEPSIZE = 0.01
_STEPMODE = C
_START = -0.502
_THETA = -0.502
_2THETA = 0.1103
_KHI = 0
_PHI = 0
_X = 19
_Y = 15
_Z = -9.465
_DETECTOR = 1
; Detector type : Scintillation counter
_HV = 743.4
_GAIN = 80
_LLD = 0.98
_ULD = 2.01
_DETECTORSLIT = out
_AUX1 = 0
_AUX2 = 0
_AUX3 = 0
_TIMESTARTED = 2
_TEMP_RATE = -1
_TEMP_DELAY = -1
_KV = 40
_MA = 35
_RANGE_WL = 1.5406
_3DPLANE = 0
_V4_COUNTERS_MASK = 1
_V4_DRIVES_MASK = 0
_V4_ENCODERS_MASK = 0
_2THETACOUNTS = 1
; THETA  Cnt1_D1
  -0.5020          3
  -0.4920          1
  -0.4820          2
  -0.4720          3
  -0.4620          3
  -0.4520          2
  -0.4420          3
  -0.4320          6
  -0.4220          6
  -0.4120          9
  -0.4020         12
  -0.3920         16
  -0.3820         26
  -0.3720         28
  -0.3620         28
  -0.3520         33
  -0.3420         61
  -0.3320         49
  -0.3220         74
  -0.3120         99
  -0.3020         94
  -0.2920        129
  -0.2820        119
  -0.2720        152
  -0.2620        168
  -0.2520        221
  -0.2420        229
  -0.2320        268
  -0.2220        255
  -0.2120        295
  -0.2020        316
  -0.1920        355
  -0.1820        394
  -0.1720        465
  -0.1620        453
  -0.1520        507
  -0.1420        533
  -0.1320        579
  -0.1220        597
  -0.1120        665
  -0.1020        729
  -0.0920        700
  -0.0820        735
  -0.0720        878
  -0.0620        827
  -0.0520        901
  -0.0420        908
  -0.0320       1031
  -0.0220       1003
  -0.0120       1069
  -0.0020       1103
   0.0080       1194
   0.0180       1162
   0.0280       1058
   0.0380        988
   0.0480       1001
   0.0580        944
   0.0680        951
   0.0780        859
   0.0880        844
   0.0980        839
   0.1080        699
   0.1180        677
   0.1280        652
   0.1380        623
   0.1480        593
   0.1580        540
   0.1680        522
   0.1780        440
   0.1880        436
   0.1980        361
   0.2080        363
   0.2180        304
   0.2280        294
   0.2380        225
   0.2480        219
   0.2580        218
   0.2680        177
   0.2780        137
   0.2880        100
   0.2980         74
   0.3080         71
   0.3180         54
   0.3280         36
   0.3380         39
   0.3480         20
   0.3580         22
   0.3680          9
   0.3780          3
   0.3880          2
   0.3980          4
   0.4080          2
   0.4180          6
   0.4280          7
   0.4380          8
   0.4480          6
   0.4580          6
   0.4680          8
   0.4780          3
   0.4880          3
   0.4980         10